{
    "entry": [
        {
            "fullUrl": "MessageHeader/05ffc960-c558-4d07-87ff-9988d15322df",
            "resource": {
                "destination": {
                    "endpoint": "localhost:52773/fhir/retilab/Omr",
                    "name": "OMR"
                },
                "eventCoding": {
                    "code": "OML_O21",
                    "display": "OML^O21^OML_O21",
                    "system": "https://fhir.siss.regione.lombardia.it/ValueSet/CodiceEventoMessageHeader"
                },
                "focus": [
                    {
                        "reference": "Encounter/ace5cde7-33f3-4d36-9d6b-9a837ed7fdcb"
                    }
                ],
                "id": "05ffc960-c558-4d07-87ff-9988d15322df",
                "meta": {
                    "lastUpdated": "2022-11-16T15:00:51+01:00",
                    "profile": [
                        "https://fhir.siss.regione.lombardia.it/StructureDefinition/ReteLabMessageHeader"
                    ],
                    "versionId": "1"
                },
                "resourceType": "MessageHeader",
                "source": {
                    "endpoint": "pietrodileo.pythonanywhere.com",
                    "name": "1",
                    "software": "Postman Space Hospital - Comet Lab"
                }
            }
        },
        {
            "fullUrl": "Encounter/ace5cde7-33f3-4d36-9d6b-9a837ed7fdcb",
            "resource": {
                "basedOn": [
                    {
                        "reference": "ServiceRequest/e2bdf00d-2235-4465-8b9c-944e337efd47"
                    }
                ],
                "class": {
                    "code": "IMP",
                    "display": "Impatient",
                    "system": "http://terminology.hl7.org/CodeSystem/v3-ActCode"
                },
                "diagnosis": [
                    {
                        "condition": {
                            "reference": "Condition/25bc970c-d45c-11ed-afa1-0242ac120002"
                        },
                        "rank": 1
                    }
                ],
                "extension": [
                    {
                        "url": "https://fhir.siss.regione.lombardia.it/StructureDefinition/Anamnesi",
                        "valueString": "Il paziente ha riferito di avere avuto episodi di vertigini negli ultimi mesi"
                    },
                    {
                        "url": "https://fhir.siss.regione.lombardia.it/StructureDefinition/DettaglioOperatoreRiceveOrdine",
                        "valueString": "Si è provveduto alla raccolta dei campioni biologoci del paziente"
                    },
                    {
                        "url": "https://fhir.siss.regione.lombardia.it/StructureDefinition/NotePazientePrestazione",
                        "valueString": "Sono stati prelevati campioni di sangue dal paziente per l'esecuzione degli esami di laboratorio prescritti."
                    }
                ],
                "id": "ace5cde7-33f3-4d36-9d6b-9a837ed7fdcb",
                "identifier": [
                    {
                        "assigner": {
                            "display": "Laboratorio richiedente",
                            "reference": "Organization/37d47b20-fbe0-11ed-99f7-02001700b287"
                        },
                        "system": "https://fhir.siss.regione.lombardia.it/CodeSystem/numeroRicovero",
                        "type": {
                            "coding": [
                                {
                                    "code": "VN",
                                    "system": "https://fhir.siss.regione.lombardia.it/CodeSystem/numeroRicovero"
                                }
                            ]
                        },
                        "value": "202300001"
                    }
                ],
                "meta": {
                    "profile": [
                        "https://fhir.siss.regione.lombardia.it/StructureDefinition/ReteLabEncounterInformazioniRichiestaLab"
                    ],
                    "versionId": "1"
                },
                "resourceType": "Encounter",
                "status": "planned",
                "subject": {
                    "reference": "Patient/6686199c-f386-4345-a178-5e98023575f7"
                }
            }
        },
        {
            "fullUrl": "Condition/25bc970c-d45c-11ed-afa1-0242ac120002",
            "resource": {
                "asserter": {
                    "display": "Stefano Neva",
                    "reference": "PractitionerRole/65a0765e-6f57-11ee-adbe-02001700b287"
                },
                "category": [
                    {
                        "coding": [
                            {
                                "code": "A",
                                "display": "Diagnosi di accettazione",
                                "system": "https://fhir.siss.regione.lombardia.it/CodeSystem/TipoDiagnosiPatologia"
                            },
                            {
                                "code": "P",
                                "display": "Patologia principale",
                                "system": "https://fhir.siss.regione.lombardia.it/CodeSystem/TipoDiagnosiPatologia"
                            }
                        ]
                    }
                ],
                "code": {
                    "coding": [
                        {
                            "code": "39065001",
                            "display": "Ustione dell'orecchio",
                            "system": "https://fhir.siss.regione.lombardia.it/CodeSystem/CodiceDiagnosi"
                        }
                    ]
                },
                "extension": [
                    {
                        "url": "https://fhir.siss.regione.lombardia.it/StructureDefinition/ReteLabConditionConfidenzialitaDiagnosi",
                        "valueString": "Diagnosi confidenziale"
                    }
                ],
                "id": "25bc970c-d45c-11ed-afa1-0242ac120002",
                "identifier": [
                    {
                        "system": "https://fhir.siss.regione.lombardia.it/CodeSystem/IdentificativoDiagnosi",
                        "value": "012345"
                    }
                ],
                "meta": {
                    "profile": [
                        "https://fhir.siss.regione.lombardia.it/StructureDefinition/ReteLabConditionDiagnosi"
                    ],
                    "versionId": "1"
                },
                "note": [
                    {
                        "text": "Note aggiuntive sulla diagnosi"
                    }
                ],
                "recordedDate": "2013-03-11T23:45:32Z",
                "resourceType": "Condition",
                "severity": {
                    "coding": [
                        {
                            "code": "24484000",
                            "display": "Severe",
                            "system": "http://snomed.info/sct"
                        }
                    ]
                },
                "subject": {
                    "display": "Mario Rossi",
                    "reference": "Patient/6686199c-f386-4345-a178-5e98023575f7"
                }
            }
        },
        {
            "fullUrl": "ServiceRequest/e2bdf00d-2235-4465-8b9c-944e337efd47",
            "resource": {
                "authoredOn": "2022-11-16T14:59:37Z",
                "category": [
                    {
                        "coding": [
                            {
                                "code": "1",
                                "display": "Richiesta",
                                "system": "https://fhir.siss.regione.lombardia.it/Valueset/CategoriaOrdine"
                            }
                        ]
                    }
                ],
                "code": {
                    "coding": [
                        {
                            "code": "90325",
                            "display": "Magnesio totale nelle urine",
                            "system": "https://fhir.siss.regione.lombardia.it/ValueSet/CodificaLOINC"
                        }
                    ]
                },
                "encounter": {
                    "display": "Informazioni Richiesta Lab",
                    "reference": "Encounter/ace5cde7-33f3-4d36-9d6b-9a837ed7fdcb"
                },
                "id": "e2bdf00d-2235-4465-8b9c-944e337efd47",
                "identifier": [
                    {
                        "system": "https://fhir.siss.regione.lombardia.it/sid/PlacerOrderNumber",
                        "value": "1-0181"
                    }
                ],
                "intent": "order",
                "meta": {
                    "profile": [
                        "https://fhir.siss.regione.lombardia.it/StructureDefinition/ReteLabServiceRequestRichiestaEsamiLab"
                    ],
                    "versionId": "1"
                },
                "orderDetail": [
                    {
                        "coding": [
                            {
                                "code": "0002",
                                "system": "https://fhir.siss.regione.lombardia.it/sid/identificativoInternoUnitaErogante"
                            }
                        ]
                    },
                    {
                        "coding": [
                            {
                                "code": "0801",
                                "system": "https://fhir.siss.regione.lombardia.it/sid/codiceMinisterialeReparto"
                            }
                        ]
                    },
                    {
                        "coding": [
                            {
                                "code": "03091300",
                                "system": "https://fhir.siss.regione.lombardia.it/sid/codiceMinisterialePresidio"
                            }
                        ]
                    },
                    {
                        "coding": [
                            {
                                "code": "LAB",
                                "system": "https://fhir.siss.regione.lombardia.it/sid/identificativoInternoSalaErogatrice"
                            }
                        ]
                    }
                ],
                "priority": "urgent",
                "quantityQuantity": {
                    "value": 1
                },
                "requester": {
                    "display": "Medico",
                    "reference": "PractitionerRole/65a0765e-6f57-11ee-adbe-02001700b287"
                },
                "requisition": {
                    "system": "https://fhir.siss.regione.lombardia.it/sid/PlacerRequisitionNumber",
                    "value": "0000-0091-"
                },
                "resourceType": "ServiceRequest",
                "specimen": [
                    {
                        "display": "Campione da analizzare",
                        "reference": "Specimen/4bbecc4b-60b4-4b4a-9b99-ce39b1f69876"
                    }
                ],
                "status": "active",
                "subject": {
                    "display": "Centoottantatre Prodsiss",
                    "reference": "Patient/6686199c-f386-4345-a178-5e98023575f7"
                },
                "supportingInfo": {
                    "display": "Info Cliniche",
                    "reference": "Observation/d52a9b60-d45e-11ed-afa1-0242ac120002"
                }
            }
        },
        {
            "fullUrl": "Observation/d52a9b60-d45e-11ed-afa1-0242ac120002",
            "resource": {
                "code": {
                    "coding": [
                        {
                            "code": "15074-8",
                            "display": "Glucose [Moles/volume] in Blood",
                            "system": "https://fhir.siss.regione.lombardia.it/ValueSet/CodificaLOINC"
                        }
                    ]
                },
                "id": "Esempio Observation Info Cliniche",
                "meta": {
                    "profile": [
                        "https://fhir.siss.regione.lombardia.it/StructureDefinition/ReteLabObservationInfoCliniche"
                    ],
                    "versionId": "1"
                },
                "note": {
                    "text": "note aggiuntive"
                },
                "resourceType": "Observation",
                "status": "final",
                "valueQuantity": {
                    "unit": "mmol/l",
                    "value": 6.3
                }
            }
        },
        {
            "fullUrl": "Specimen/4bbecc4b-60b4-4b4a-9b99-ce39b1f69876",
            "resource": {
                "collection": {
                    "bodySite": {
                        "coding": [
                            {
                                "code": "TBD",
                                "display": "TBD",
                                "system": "https://fhir.siss.regione.lombardia.it/ValueSet/CodificaLOINC"
                            }
                        ]
                    },
                    "collectedDateTime": "2022-11-16T14:59:37Z",
                    "quantity": {
                        "value": 0
                    }
                },
                "id": "4bbecc4b-60b4-4b4a-9b99-ce39b1f69876",
                "meta": {
                    "profile": [
                        "https://fhir.siss.regione.lombardia.it/StructureDefinition/ReteLabSpecimenCampioneDaAnalizzare"
                    ],
                    "versionId": 1
                },
                "receivedTime": "2022-11-16T14:59:37Z",
                "resourceType": "Specimen"
            }
        },
        {
            "fullUrl": "Organization/7195779b-9c43-4074-a2d4-7e34e18b1ae4",
            "resource": {
                "id": "7195779b-9c43-4074-a2d4-7e34e18b1ae4",
                "identifier": [
                    {
                        "system": "https://fhir.siss.regione.lombardia.it/CodeSystem/CodiceStruttura",
                        "value": "309672"
                    }
                ],
                "meta": {
                    "profile": [
                        "https://fhir.siss.regione.lombardia.it/StructureDefinition/ReteLabOrganizationL1"
                    ],
                    "versionId": "1"
                },
                "name": "Denominazione dell'ente L1",
                "resourceType": "Organization"
            }
        },
        {
            "fullUrl": "Organization/37d47b20-fbe0-11ed-99f7-02001700b287",
            "resource": {
                "id": "37d47b20-fbe0-11ed-99f7-02001700b287",
                "identifier": [
                    {
                        "system": "https://fhir.siss.regione.lombardia.it/sid/codiceMinisterialePresidio",
                        "value": "1234"
                    }
                ],
                "meta": {
                    "profile": [
                        "https://fhir.siss.regione.lombardia.it/StructureDefinition/ReteLabOrganizationL2"
                    ],
                    "versionId": "1"
                },
                "name": "Descrizione del presidio L2",
                "partOf": {
                    "reference": "Organization/7195779b-9c43-4074-a2d4-7e34e18b1ae4"
                },
                "resourceType": "Organization"
            }
        },
        {
            "fullUrl": "Organization/65a05dcc-6f57-11ee-adbe-02001700b287",
            "resource": {
                "id": "65a05dcc-6f57-11ee-adbe-02001700b287",
                "identifier": [
                    {
                        "system": "https://fhir.siss.regione.lombardia.it/sid/codiceMinisterialeReparto",
                        "value": "0801"
                    }
                ],
                "meta": {
                    "profile": [
                        "https://fhir.siss.regione.lombardia.it/StructureDefinition/ReteLabOrganizationL3"
                    ],
                    "versionId": "1"
                },
                "name": "CARDIOLOGIA",
                "partOf": {
                    "reference": "Organization/37d47b20-fbe0-11ed-99f7-02001700b287"
                },
                "resourceType": "Organization"
            }
        },
        {
            "fullUrl": "Organization/72c10akc-9d02-34df-cina-01945719a018",
            "resource": {
                "id": "72c10akc-9d02-34df-cina-01945719a018",
                "identifier": [
                    {
                        "system": "https://fhir.siss.regione.lombardia.it/sid/codiceMinisterialeReparto",
                        "value": "121314"
                    }
                ],
                "meta": {
                    "profile": [
                        "https://fhir.siss.regione.lombardia.it/StructureDefinition/ReteLabOrganizationL4"
                    ],
                    "versionId": "1"
                },
                "name": "CARDIOLOGIA",
                "partOf": {
                    "reference": "Organization/65a05dcc-6f57-11ee-adbe-02001700b287"
                },
                "resourceType": "Organization"
            }
        },
        {
            "fullUrl": "Patient/6686199c-f386-4345-a178-5e98023575f7",
            "resource": {
                "address": [
                    {
                        "city": "MILANO",
                        "extension": [
                            {
                                "url": "https://fhir.siss.regione.lombardia.it/StructureDefinition/ReteLabAddressCodiceISTAT",
                                "valueString": "015146"
                            }
                        ],
                        "line": [
                            {
                                "extension": [
                                    {
                                        "url": "https://fhir.siss.regione.lombardia.it/StructureDefinition/ReteLabLineVia",
                                        "valueString": "V. C/O LOMBARDIA INFORMATICA VIA MINZONI 24"
                                    }
                                ]
                            }
                        ],
                        "postalCode": "20158",
                        "state": "MI",
                        "text": "V. C/O LOMBARDIA INFORMATICA VIA MINZONI 24",
                        "use": "home"
                    },
                    {
                        "city": "MILANO",
                        "extension": [
                            {
                                "url": "https://fhir.siss.regione.lombardia.it/StructureDefinition/ReteLabAddressCodiceISTAT",
                                "valueString": "015146"
                            }
                        ],
                        "line": [
                            {
                                "extension": [
                                    {
                                        "url": "https://fhir.siss.regione.lombardia.it/StructureDefinition/ReteLabLineNumeroCivico",
                                        "valueString": "MINZONI24"
                                    },
                                    {
                                        "url": "https://fhir.siss.regione.lombardia.it/StructureDefinition/ReteLabLineVia",
                                        "valueString": "V. C/O LOMBARDIA INFORMATICA VIA"
                                    }
                                ]
                            }
                        ],
                        "postalCode": "20158",
                        "state": "MI",
                        "text": "V. C/O LOMBARDIA INFORMATICA VIA, MINZONI24",
                        "use": "temp"
                    },
                    {
                        "city": "MILANO",
                        "extension": [
                            {
                                "url": "https://fhir.siss.regione.lombardia.it/StructureDefinition/ReteLabAddressCodiceISTAT",
                                "valueString": "015146"
                            }
                        ],
                        "line": [
                            {
                                "extension": [
                                    {
                                        "url": "https://fhir.siss.regione.lombardia.it/StructureDefinition/ReteLabLineVia",
                                        "valueString": "V. C/O LOMBARDIA INFORMATICA VIA MINZONI 24"
                                    }
                                ]
                            }
                        ],
                        "postalCode": "20158",
                        "state": "MI",
                        "text": "V. C/O LOMBARDIA INFORMATICA VIA MINZONI 24",
                        "use": "home"
                    },
                    {
                        "city": "MILANO",
                        "extension": [
                            {
                                "url": "https://fhir.siss.regione.lombardia.it/StructureDefinition/ReteLabAddressCodiceISTAT",
                                "valueString": "015146"
                            }
                        ],
                        "line": [
                            {
                                "extension": [
                                    {
                                        "url": "https://fhir.siss.regione.lombardia.it/StructureDefinition/ReteLabLineNumeroCivico",
                                        "valueString": "MINZONI24"
                                    },
                                    {
                                        "url": "https://fhir.siss.regione.lombardia.it/StructureDefinition/ReteLabLineVia",
                                        "valueString": "V. C/O LOMBARDIA INFORMATICA VIA"
                                    }
                                ]
                            }
                        ],
                        "postalCode": "20158",
                        "state": "MI",
                        "text": "V. C/O LOMBARDIA INFORMATICA VIA, MINZONI24",
                        "use": "home"
                    }
                ],
                "birthDate": "2000-07-02",
                "extension": [
                    {
                        "url": "http://hl7.org/fhir/StructureDefinition/patient-birthPlace",
                        "valueAddress": {
                            "city": "FRANCIA",
                            "extension": [
                                {
                                    "url": "https://fhir.siss.regione.lombardia.it/StructureDefinition/ReteLabAddressCodiceISTAT",
                                    "valueString": "999215"
                                }
                            ]
                        }
                    }
                ],
                "gender": "male",
                "id": "6686199c-f386-4345-a178-5e98023575f7",
                "identifier": [
                    {
                        "assigner": {
                            "display": "DESC",
                            "extension": [
                                {
                                    "url": "https://fhir.siss.regione.lombardia.it/StructureDefinition/ReteLabIdentifierAssignerSiglaNazione",
                                    "valueString": "FR"
                                }
                            ],
                            "identifier": {
                                "value": "COD"
                            }
                        },
                        "period": {
                            "end": "2021-05-21T00:00:00+01:00"
                        },
                        "system": "https://fhir.siss.regione.lombardia.it/Valueset/TesseraTEAM",
                        "type": {
                            "coding": [
                                {
                                    "code": "NPI",
                                    "display": "Tessera TEAM",
                                    "system": "https://fhir.siss.regione.lombardia.it/Valueset/TipologiaIdentificativoPaziente"
                                }
                            ]
                        },
                        "value": "CODTEAM"
                    }
                ],
                "meta": {
                    "profile": [
                        "https://fhir.siss.regione.lombardia.it/StructureDefinition/ReteLabPatientCittadino"
                    ],
                    "versionId": "1"
                },
                "name": [
                    {
                        "family": "PRODSISS",
                        "given": [
                            "CENTOOTTANTATRE"
                        ]
                    }
                ],
                "resourceType": "Patient"
            }
        },
        {
            "fullUrl": "PractitionerRole/65a0765e-6f57-11ee-adbe-02001700b287",
            "resource": {
                "code": [
                    {
                        "coding": [
                            {
                                "code": "2",
                                "display": "Specialista",
                                "system": "https://fhir.siss.regione.lombardia.it/ValueSet/QualificaMedico"
                            }
                        ]
                    }
                ],
                "id": "65a0765e-6f57-11ee-adbe-02001700b287",
                "meta": {
                    "profile": [
                        "https://fhir.siss.regione.lombardia.it/StructureDefinition/ReteLabPractitionerRoleMedico"
                    ],
                    "versionId": "1"
                },
                "practitioner": {
                    "reference": "Practitioner/660cecf8-d45c-11ed-afa1-0242ac120002"
                },
                "resourceType": "PractitionerRole"
            }
        },
        {
            "fullUrl": "Practitioner/660cecf8-d45c-11ed-afa1-0242ac120002",
            "resource": {
                "id": "660cecf8-d45c-11ed-afa1-0242ac120002",
                "identifier": [
                    {
                        "system": "https://fhir.siss.regione.lombardia.it/CodeSystem/CodiceFiscale",
                        "type": {
                            "coding": [
                                {
                                    "code": "NN",
                                    "display": "Codice fiscale",
                                    "system": "https://fhir.siss.regione.lombardia.it/CodeSystem/CodiceFiscale"
                                }
                            ]
                        },
                        "value": "NVESFN77E09H264L"
                    }
                ],
                "meta": {
                    "profile": [
                        "https://fhir.siss.regione.lombardia.it/StructureDefinition/ReteLabPractitionerMedico"
                    ],
                    "versionId": "1"
                },
                "name": [
                    {
                        "family": "NEVA",
                        "given": [
                            "STEFANO"
                        ]
                    }
                ],
                "resourceType": "Practitioner"
            }
        }
    ],
    "id": "31220ea7-39a8-4a90-a37f-9d93b63160ff",
    "resourceType": "Bundle",
    "richiesta": "New Request",
    "timestamp": "2023-10-26T10:26:46.841Z",
    "type": "message"
}